Temperature,Magnetisation,Absolute magnetisation,Magnetisation^2,Magnetisation^4
2.4,0.002820125,0.653701375,0.516723984375,0.588418
2.39,0.001783125,0.657254875,0.521153140625,0.590416
2.3800000000000003,0.001185375,0.661401125,0.526164296875,0.59425
2.3700000000000006,0.007464,0.6667305,0.532564625,0.594401
2.3600000000000008,-0.00466825,0.6704975,0.5372528125,0.602099
2.350000000000001,-0.000547125,0.674982375,0.542886546875,0.603871
2.340000000000001,0.0004385,0.679813,0.5489446875,0.606444
2.3300000000000014,-0.00289425,0.683006,0.5529048125,0.609957
2.3200000000000016,0.002210625,0.687973625,0.558918140625,0.610988
2.310000000000002,-0.00095275,0.6915215,0.5636846875,0.61492
2.300000000000002,-0.003158875,0.697745125,0.571382078125,0.619994
2.2900000000000023,-0.002364625,0.701672625,0.576318359375,0.622674
2.2800000000000025,-0.000153625,0.705924375,0.581850171875,0.625935
2.2700000000000027,-0.0040875,0.71186125,0.58923015625,0.630609
2.260000000000003,-0.00429225,0.715455,0.59369559375,0.633372
2.250000000000003,-0.010931375,0.719643375,0.599202859375,0.639775
2.2400000000000033,0.001255,0.72440725,0.60522884375,0.638101
2.2300000000000035,-0.000438625,0.729866875,0.612182234375,0.643229
2.2200000000000037,0.0030065,0.73420625,0.61775253125,0.645543
2.210000000000004,-0.00811875,0.73796675,0.62288509375,0.653182
2.200000000000004,0.000276,0.74352025,0.62985975,0.655467
2.1900000000000044,0.006805875,0.748007125,0.635646234375,0.655488
2.1800000000000046,0.003463125,0.752349625,0.641297578125,0.66027
2.170000000000005,-0.00269475,0.7573875,0.64787946875,0.66572
2.160000000000005,0.00093075,0.7614045,0.65314784375,0.668141
2.1500000000000052,-0.001426375,0.767335375,0.660661484375,0.674534
2.1400000000000055,0.007915375,0.770582875,0.665239640625,0.674152
2.1300000000000057,-0.00382125,0.77597575,0.672181125,0.682317
2.120000000000006,-0.000498125,0.779880875,0.677431578125,0.684501
2.110000000000006,0.007403875,0.784950875,0.683966828125,0.685998
2.1000000000000063,0.003412125,0.788923875,0.689281015625,0.692057
2.0900000000000065,0.01196825,0.7955715,0.698046875,0.694433
2.0800000000000067,-0.00260425,0.798318,0.701927875,0.701872
2.070000000000007,-0.002370125,0.803366125,0.708661671875,0.705997
2.060000000000007,0.00014925,0.8080985,0.71507409375,0.710259
2.0500000000000074,-0.004852125,0.813207125,0.721948640625,0.716892
2.0400000000000076,0.001928125,0.816497625,0.726410109375,0.718949
2.030000000000008,0.001759,0.8217795,0.7333900625,0.723526
2.020000000000008,-0.009958,0.82580675,0.73885621875,0.729804
2.0100000000000082,0.0025605,0.83002675,0.7446901875,0.73149
2.0000000000000084,0.01037175,0.83472975,0.75091365625,0.73473
